Folder: Lean.DataSource.CoinGeckoMarketCap/output/alternative/coingecko/marketcap

File: xrd.csv
20210823,0.0
20210824,0.0
20210825,0.0
20210826,0.0
20210827,0.0
20210828,0.0
20210829,0.0
20210830,0.0
20210831,0.0
20210901,0.0
20210902,0.0
20210903,0.0
20210904,0.0
20210905,0.0
20210906,0.0
20210907,0.0
20210908,0.0
20210909,0.0
20210910,0.0
20210911,0.0
20210912,0.0
20210913,0.0
20210914,0.0
20210915,0.0
20210916,0.0
20210917,0.0
20210918,0.0
20210919,0.0
20210920,0.0
20210921,0.0
20210922,0.0
20210923,0.0
20210924,0.0
20210925,0.0
20210926,0.0
20210927,0.0
20210928,0.0
20210929,0.0
20210930,0.0
20211001,0.0
20211002,0.0
20211003,0.0
20211004,0.0
20211005,0.0
20211006,0.0
20211007,0.0
20211008,0.0
20211009,0.0
20211010,0.0
20211011,0.0
20211012,0.0
20211013,0.0
20211014,0.0
20211015,0.0
20211016,0.0
20211017,0.0
20211018,0.0
20211019,0.0
20211020,0.0
20211021,0.0
20211022,0.0
20211023,0.0
20211024,0.0
20211025,0.0
20211026,0.0
20211027,0.0
20211028,0.0
20211029,0.0
20211030,0.0
20211031,0.0
20211101,0.0
20211102,0.0
20211103,0.0
20211104,0.0
20211105,0.0
20211106,0.0
20211107,0.0
20211108,0.0
20211109,0.0
20211110,0.0
20211111,0.0
20211112,0.0
20211113,0.0
20211114,0.0
20211115,0.0
20211116,0.0
20211117,0.0
20211118,0.0
20211119,0.0
20211120,0.0
20211121,0.0
20211122,0.0
20211123,0.0
20211124,0.0
20211125,0.0
20211126,0.0
20211127,3.95873e+09
20211128,3.72026e+09
20211129,3.94696e+09
20211130,4.2881e+09
20211201,4.2681e+09
20211202,3.85656e+09
20211203,4.35182e+09
20211204,3.87125e+09
20211205,3.49234e+09
20211206,3.19463e+09
20211207,2.93554e+09
20211208,2.87788e+09
20211209,2.74009e+09
20211210,2.48932e+09
20211211,2.33604e+09
20211212,2.58192e+09
20211213,2.85708e+09
20211214,2.21864e+09
20211215,2.33045e+09
20211216,2.72289e+09
20211217,2.75561e+09
20211218,2.57828e+09
20211219,2.5277e+09
20211220,2.44137e+09
20211221,2.39059e+09
20211222,2.55951e+09
20211223,2.69426e+09
20211224,2.61982e+09
20211225,2.80921e+09
20211226,2.80527e+09
20211227,2.77563e+09
20211228,3.06798e+09
20211229,2.82449e+09
20211230,2.69654e+09
20211231,2.48831e+09
20220101,2.40135e+09
20220102,2.57079e+09
20220103,2.48998e+09
20220104,2.39687e+09
20220105,2.43515e+09
20220106,2.18183e+09
20220107,2.28936e+09
20220108,2.06852e+09
20220109,2.01757e+09
20220110,2.10665e+09
20220111,2.0441e+09
20220112,2.06475e+09
20220113,2.28045e+09
20220114,2.19807e+09
20220115,2.26237e+09
20220116,2.3564e+09
20220117,2.36119e+09
20220118,2.13513e+09
20220119,2.00911e+09
20220120,2.02303e+09
20220121,2.01316e+09
20220122,1.60106e+09
20220123,1.5966e+09
20220124,1.72823e+09
20220125,1.64109e+09
20220126,1.56072e+09
20220127,1.59324e+09
20220128,1.57681e+09
20220129,1.61407e+09
20220130,1.67585e+09
20220131,1.64124e+09
20220201,1.69261e+09
20220202,1.70991e+09
20220203,1.61623e+09
20220204,1.58626e+09
20220205,1.7187e+09
20220206,1.67357e+09
20220207,1.64526e+09
20220208,1.87673e+09
20220209,1.97861e+09
20220210,1.99462e+09
20220211,1.85306e+09
20220212,1.72388e+09
20220213,1.722e+09
20220214,1.70204e+09
20220215,1.70442e+09
20220216,1.7546e+09
20220217,1.72544e+09
20220218,1.56528e+09
20220219,1.45998e+09
20220220,1.43633e+09
20220221,1.30693e+09
20220222,1.17758e+09
20220223,1.26906e+09
20220224,1.17763e+09
20220225,1.04799e+09
20220226,1.25851e+09
20220227,1.43095e+09
20220228,1.3533e+09
20220301,1.45476e+09
20220302,1.39456e+09
20220303,1.35695e+09
20220304,1.30359e+09
20220305,1.2619e+09
20220306,1.39491e+09
20220307,1.33054e+09
20220308,1.28281e+09
20220309,1.19414e+09
20220310,1.15816e+09
20220311,1.18877e+09
20220312,1.19166e+09
20220313,1.17936e+09
20220314,1.16833e+09
20220315,1.14758e+09
20220316,1.15924e+09
20220317,1.22064e+09
20220318,1.26793e+09
20220319,1.26008e+09
20220320,1.20205e+09
20220321,1.20836e+09
20220322,1.25793e+09
20220323,1.4317e+09
20220324,1.6201e+09
20220325,1.43615e+09
20220326,1.45821e+09
20220327,1.45004e+09
20220328,1.55274e+09
20220329,1.54469e+09
20220330,1.54403e+09
20220331,1.55638e+09
20220401,1.43711e+09
20220402,1.49086e+09
20220403,1.45096e+09
20220404,1.49197e+09
20220405,1.47374e+09
20220406,1.41788e+09
20220407,1.29123e+09
20220408,1.36899e+09
20220409,1.35693e+09
20220410,1.37608e+09
20220411,1.36219e+09
20220412,1.29982e+09
20220413,1.31123e+09
20220414,1.3507e+09
20220415,1.33978e+09
20220416,1.36087e+09
20220417,1.36739e+09
20220418,1.38777e+09
20220419,1.38576e+09
20220420,1.34198e+09
20220421,1.31347e+09
20220422,1.30651e+09
20220423,1.2739e+09
20220424,1.26092e+09
20220425,1.28589e+09
20220426,1.23061e+09
20220427,1.23184e+09
20220428,1.24628e+09
20220429,1.20894e+09
20220430,1.13298e+09
20220501,1.1214e+09
20220502,1.12317e+09
20220503,1.12448e+09
20220504,1.1461e+09
20220505,1.20331e+09
20220506,1.11476e+09
20220507,1.14235e+09
20220508,1.10736e+09
20220509,1.08636e+09
20220509,9.99949e+08